Folder: coal/examples/usgs_splib07/ASCIIdata/ASCIIdata_splib07a/ChapterM_Minerals

Note: examples/usgs_splib07/ASCIIdata/ASCIIdata_splib07a/ChapterM_Minerals/splib07a_Acmite_NMNH133746_Pyroxene_BECKa_AREF.txt
splib07a Record=99: Acmite NMNH133746 Pyroxene    BECKa AREF
-1.2300000e+034
 2.6845176e-002
 2.8268818e-002
 2.6145432e-002
 2.5932632e-002
 2.5592793e-002
 2.5732560e-002
 2.6029581e-002
 2.6661074e-002
 2.7376426e-002
 2.8232697e-002
 2.9338919e-002
 3.0902214e-002
 3.0642832e-002
 3.1795792e-002
 3.1839158e-002
 3.2350373e-002
 3.3071302e-002
 3.3119813e-002
 3.3592146e-002
 3.4209978e-002
 3.4598365e-002
 3.6168884e-002
 3.6888644e-002
 3.7667006e-002
 3.8786735e-002
 3.9495956e-002
 3.9964765e-002
 4.0468931e-002
 4.1170094e-002
 4.1674856e-002
 4.1767247e-002
 4.1415080e-002
 4.1452736e-002
 4.1789524e-002
 4.1541830e-002
 4.1766427e-002
 4.1314639e-002
 4.1239478e-002
 4.1407283e-002
 4.1208178e-002
 4.1779179e-002
 4.1887537e-002
 4.1759603e-002
 4.1613385e-002
 4.1588929e-002
 4.2226087e-002
 4.1760594e-002
 4.2372413e-002
 4.1797098e-002
 4.1984055e-002
 4.2174499e-002
 4.2255487e-002
 4.2130768e-002
 4.2089917e-002
 4.1948918e-002
 4.2863749e-002
 4.2157035e-002
 4.2782318e-002
 4.2480756e-002
 4.2500392e-002
 4.2828895e-002
 4.2806145e-002
 4.3559823e-002
 4.2783026e-002
 4.2487871e-002
 4.3230392e-002
 4.3533325e-002
 4.3427028e-002
 4.3712001e-002
 4.3772582e-002
 4.3967526e-002
 4.3493859e-002
 4.4035465e-002
 4.3886207e-002
 4.4462815e-002
 4.4696253e-002
 4.3909356e-002
 4.4205658e-002
 4.5010567e-002
 4.4936653e-002
 4.5375120e-002
 4.4754058e-002
 4.5136511e-002
 4.5377750e-002
 4.5402415e-002
 4.5902222e-002
 4.5062188e-002
 4.5768593e-002
 4.5734655e-002
 4.5009837e-002
 4.6765111e-002
 4.7264460e-002
 4.5699134e-002
 4.6393108e-002
 4.6028618e-002
 4.6027627e-002
 4.6470482e-002
 4.5775682e-002
 4.6260327e-002
 4.6791099e-002
 4.6482749e-002
 4.6598006e-002
 4.6465497e-002
 4.6985652e-002
 4.6621393e-002
 4.6969958e-002
 4.7204908e-002
 4.7533073e-002
 4.6281096e-002
 4.6585988e-002
 4.6421450e-002
 4.7084320e-002
 4.6472050e-002
 4.6415672e-002
 4.5840576e-002
 4.6385553e-002
 4.6257980e-002
 4.7420137e-002
 4.5981809e-002
 4.6181444e-002
 4.5815043e-002
 4.5388982e-002
 4.5185965e-002
 4.4778541e-002
 4.5708511e-002
 4.5473650e-002
 4.4836983e-002
 4.4760283e-002
 4.5263808e-002
 4.4913523e-002
 4.5175999e-002
 4.4459525e-002
 4.4616446e-002
 4.5001183e-002
 4.4724736e-002
 4.4300672e-002
 4.4208717e-002
 4.4111360e-002
 4.4462368e-002
 4.4272937e-002
 4.3685552e-002
 4.3790836e-002
 4.3482885e-002
 4.3126699e-002
 4.3498695e-002
 4.3274488e-002
 4.2639166e-002
 4.2319968e-002
 4.3157984e-002
 4.2580072e-002
 4.3210059e-002
 4.3026622e-002
 4.2983141e-002
 4.1929025e-002
 4.1935600e-002
 4.1802987e-002
 4.2120326e-002
 4.2678431e-002
 4.2159118e-002
 4.1550890e-002
 4.2234734e-002
 4.2081349e-002
 4.1474815e-002
 4.1600738e-002
 4.1821543e-002
 4.1193545e-002
 4.2127497e-002
 4.0358260e-002
 4.1127257e-002
 4.0976495e-002
 4.0601514e-002
 4.0579300e-00

Note: examples/usgs_splib07/ASCIIdata/ASCIIdata_splib07a/ChapterM_Minerals/splib07a_Adularia_GDS57_Orthoclase_BECKb_AREF.txt
splib07a Record=256: Adularia GDS57 Orthoclase     BECKb AREF
-1.2300000e+034
-1.2300000e+034
-1.2300000e+034
-1.2300000e+034
-1.2300000e+034
-1.2300000e+034
 2.5288522e-001
 2.4984640e-001
 2.6435211e-001
 2.8678599e-001
 3.1260440e-001
 3.4075043e-001
 3.6874720e-001
 3.9877370e-001
 4.2687431e-001
 4.5464429e-001
 4.7836092e-001
 5.0532138e-001
 5.2998877e-001
 5.4713720e-001
 5.6425327e-001
 5.8158565e-001
 5.9584254e-001
 6.1078542e-001
 6.2349552e-001
 6.3194960e-001
 6.4240122e-001
 6.5074152e-001
 6.5561312e-001
 6.6287756e-001
 6.6716748e-001
 6.7431217e-001
 6.8082011e-001
 6.8441480e-001
 6.8535107e-001
 6.8945414e-001
 6.9211119e-001
 6.9395912e-001
 6.9510090e-001
 6.9817841e-001
 7.0010775e-001
 7.0335573e-001
 7.0652866e-001
 7.0791578e-001
 7.0964509e-001
 7.1201622e-001
 7.1249545e-001
 7.1461076e-001
 7.1577448e-001
 7.1835494e-001
 7.1776086e-001
 7.2005898e-001
 7.2012722e-001
 7.2142392e-001
 7.2261238e-001
 7.2456300e-001
 7.2660458e-001
 7.2680008e-001
 7.3054266e-001
 7.2981119e-001
 7.3484325e-001
 7.3395020e-001
 7.3565507e-001
 7.3920047e-001
 7.4007314e-001
 7.4289322e-001
 7.4391204e-001
 7.4595034e-001
 7.4831635e-001
 7.4946821e-001
 7.5064230e-001
 7.5224763e-001
 7.5254375e-001
 7.5282633e-001
 7.5285035e-001
 7.5353616e-001
 7.5561458e-001
 7.5574505e-001
 7.5546467e-001
 7.5786287e-001
 7.5656658e-001
 7.6035190e-001
 7.5996548e-001
 7.6090306e-001
 7.6202029e-001
 7.6125890e-001
 7.6440436e-001
 7.6137954e-001
 7.6480585e-001
 7.6451629e-001
 7.6629400e-001
 7.6645643e-001
 7.6788771e-001
 7.6869750e-001
 7.6975363e-001
 7.6993972e-001
 7.7056390e-001
 7.7211064e-001
 7.7051884e-001
 7.7335185e-001
 7.7306205e-001
 7.7279347e-001
 7.7506864e-001
 7.7424675e-001
 7.7614772e-001
 7.7537978e-001
 7.7702731e-001
 7.7933818e-001
 7.7843636e-001
 7.7937388e-001
 7.7958179e-001
 7.7958888e-001
 7.7954745e-001
 7.7830690e-001
 7.7969980e-001
 7.7966088e-001
 7.8213853e-001
 7.8227055e-001
 7.8281760e-001
 7.8309137e-001
 7.8382033e-001
 7.8497267e-001
 7.8448707e-001
 7.8488487e-001
 7.8650057e-001
 7.8365242e-001
 7.8592348e-001
 7.8658617e-001
 7.8622222e-001
 7.8707433e-001
 7.8492165e-001
 7.8547060e-001
 7.8627628e-001
 7.8719872e-001
 7.8863204e-001
 7.8845960e-001
 7.8685749e-001
 7.8826374e-001
 7.8745860e-001
 7.8759944e-001
 7.8757435e-001
 7.8814745e-001
 7.8995043e-001
 7.8942549e-001
 7.8842801e-001
 7.9096681e-001
 7.8865695e-001
 7.8779447e-001
 7.9009438e-001
 7.8705609e-001
 7.9185760e-001
 7.8936642e-001
 7.9226857e-001
 7.9157561e-001
 7.9033548e-001
 7.9184735e-001
 7.9170233e-001
 7.8906214e-001
 7.9166681e-001
 7.8794026e-001
 7.9193974e-001
 7.9031992e-001
 7.9135501e-001
 7.9137605e-001
 7.9132771e-001
 7.9158795e-001
 7.9066789e-001
 7.9205525e-001
 7.9120308e-001
 7.9285532e-001
 7.9020345e-001
 7.9348081e-001
 7.9129827e-0

File: splib07a_Chalcedony_CU91-6A_XRD_NIC4aa_RREF.txt
 splib07a Record=2504: Chalcedony CU91-6A XRD       NIC4aa RREF
-1.23e+34
-1.23e+34
-1.23e+34
-1.23e+34
-1.23e+34
-1.23e+34
-1.23e+34
-1.23e+34
-1.23e+34
-1.23e+34
-1.23e+34
-1.23e+34
-1.23e+34
-1.23e+34
-1.23e+34
-1.23e+34
-1.23e+34
-1.23e+34
-1.23e+34
-1.23e+34
-1.23e+34
-1.23e+34
-1.23e+34
-1.23e+34
-1.23e+34
-1.23e+34
-1.23e+34
-1.23e+34
-1.23e+34
-1.23e+34
-1.23e+34
-1.23e+34
-1.23e+34
-1.23e+34
-1.23e+34
-1.23e+34
-1.23e+34
-1.23e+34
-1.23e+34
-1.23e+34
-1.23e+34
-1.23e+34
-1.23e+34
-1.23e+34
-1.23e+34
-1.23e+34
-1.23e+34
-1.23e+34
-1.23e+34
-1.23e+34
-1.23e+34
-1.23e+34
-1.23e+34
-1.23e+34
-1.23e+34
-1.23e+34
-1.23e+34
-1.23e+34
-1.23e+34
-1.23e+34
-1.23e+34
-1.23e+34
-1.23e+34
-1.23e+34
-1.23e+34
-1.23e+34
-1.23e+34
-1.23e+34
-1.23e+34
-1.23e+34
-1.23e+34
-1.23e+34
-1.23e+34
-1.23e+34
-1.23e+34
-1.23e+34
-1.23e+34
-1.23e+34
-1.23e+34
-1.23e+34
-1.23e+34
-1.23e+34
-1.23e+34
-1.23e+34
-1.23e+34
-1.23e+34
-1.23e+34
-1.23e+34
 0.44093
 0.442884
 0.444838
 0.446835
 0.449267
 0.451177
 0.45274
 0.453999
 0.455085
 0.456561
 0.458081
 0.459948
 0.462076
 0.463639
 0.465028
 0.465983
 0.466722
 0.467981
 0.468849
 0.470412
 0.471932
 0.473408
 0.474407
 0.474971
 0.475275
 0.47584
 0.476621
 0.477446
 0.477186
 0.476404
 0.473104
 0.471454
 0.471671
 0.472583
 0.474146
 0.47584
 0.477924
 0.479661
 0.481007
 0.482005
 0.482179
 0.482222
 0.482483
 0.482917
 0.483699
 0.484176
 0.484524
 0.48422
 0.483525
 0.482266
 0.480572
 0.478402
 0.47445
 0.468936
 0.468675
 0.469804
 0.469631
 0.468806
 0.468893
 0.468979
 0.469804
 0.47115
 0.471758
 0.471628
 0.470977
 0.46937
 0.467069
 0.464029
 0.460556
 0.457256
 0.454303
 0.451959
 0.448919
 0.445837
 0.442841
 0.440192
 0.438325
 0.434157
 0.431117
 0.414921
 0.376104
 0.320353
 0.254485
 0.201512
 0.187791
 0.194087
 0.191178
 0.180584
 0.170641
 0.166603
 0.166472
 0.168296
 0.174201
 0.182277
 0.189919
 0.198169
 0.207504
 0.218012
 0.229779
 0.241763
 0.253703
 0.265644
 0.27741
 0.289221
 0.29886
 0.304895
 0.310279
 0.325954
 0.331295
 0.344798
 0.351572
 0.357303
 0.362079
 0.363512
 0.364337
 0.369244
 0.369678
 0.369331
 0.371067
 0.365987
 0.365683
 0.365206
 0.357129
 0.348532
 0.341629
 0.336201
 0.33416
 0.306068
 0.281405
 0.309541
 0.327691
 0.305633
 0.302333
 0.289003
 0.244194
 0.138206
 0.0940043
 0.102037
 0.110157
 0.0662589
 0.0436805
 0.096045
 0.0788073
 0.0744653
 0.120187
 0.0889241
 0.0489778
 0.0575315
 0.0330426
 0.0304374
 0.0551868
 0.0290914
 0.0235771
 0.0215797
 0.0165864
 0.00777218
 0.0015197
-0.0004342
 0.0028223
 0.0131128
 0.0346057
 0.0462857
 0.0246191
 0.0157615
 0.0206679
 0.0237942
 0.0283533
 0.0316966
 0.0432897
 0.0498462
 0.0550131
 0.0570973
 0.0572276
 0.0518435
 0.0263994
 0.0315229
 0.049933
 0.0608314
 0.0399898
 0.0646524
 0.0686036
 0.071339
 0.0707746
 0.0826717
 0.0984765
 0.120534
 0.136382
 0.15362
-1.23e+34
-1.23e+34
-1.23e+34
-1.23e+34
-1.23e+34
-1.23e+34
-1.23e+34
-1.23e+34
-1.23e+34
-1.23e+34
-1.23e+34
-1.23e+34
-1.23e+34